* Measurement data measured by REW V5.31
* Source: Scarlett 2i4 USB, MICROPHONE, R, volume: no control. Timing signal peak level -25.3 dBFS, measurement signal peak level -15.9 dBFS
* Format: 512k Log Swept Sine, 1 sweep at -18.0 dBFS using an acoustic timing reference
* Dated: Apr 15, 2024 9:09:08 AM
* REW Settings:
*  C-weighting compensation: Off
*  Target level: 75.0 dB
* Note: ; Delay -3.5903 ms (-1.231 m, -(4 ft 0.5 in)) using estimated IR delay relative to Acoustic reference played from SPEAKER L with no timing offset
* Measurement: empty-p1-rl
* Smoothing: 1/48 octave
* Frequency Step: 96 ppo
* Start Frequency: 10.093689 Hz
*
* Freq(Hz) SPL(dB) Phase(degrees)
10.093689 13.427 133.1331
10.166832 13.897 128.1989
10.240505 14.463 122.2028
10.314712 15.043 115.7876
10.389457 15.615 109.1819
10.464743 16.139 102.1192
10.540575 16.583 93.8069
10.616956 16.982 84.9273
10.693891 17.367 76.0865
10.771383 17.760 67.4499
10.849437 18.162 58.0470
10.928057 18.564 47.9357
11.007246 18.967 37.9798
11.087009 19.372 28.5970
11.167350 19.784 19.1933
11.248273 20.201 9.1000
11.329783 20.612 -0.8206
11.411883 21.001 -10.0393
11.494578 21.362 -18.8986
11.577873 21.702 -28.4473
11.661771 22.012 -37.9689
11.746277 22.277 -46.8575
11.831395 22.492 -55.3253
11.917130 22.661 -64.5957
12.003487 22.777 -74.0349
12.090469 22.833 -82.9390
12.178081 22.824 -91.5705
12.266329 22.751 -101.2499
12.355216 22.613 -111.3065
12.444747 22.406 -120.8723
12.534926 22.120 -130.6897
12.625760 21.761 -142.0307
12.717251 21.356 -154.0519
12.809406 20.924 -165.6764
12.902228 20.437 -178.9888
12.995723 19.946 165.3399
13.089895 19.557 148.9347
13.184750 19.347 132.5031
13.280292 19.297 113.1388
13.376526 19.400 93.2893
13.473458 19.668 75.9052
13.571093 20.132 58.5223
13.669434 20.727 41.4290
13.768489 21.333 26.7615
13.868261 21.888 13.6594
13.968756 22.414 -0.1160
14.069979 22.883 -12.9103
14.171936 23.258 -24.1372
14.274632 23.539 -36.3223
14.378072 23.731 -48.6907
14.482261 23.833 -59.8763
14.587206 23.839 -71.7704
14.692910 23.757 -84.7837
14.799381 23.603 -97.2336
14.906624 23.371 -110.0736
15.014643 23.078 -124.9628
15.123446 22.778 -139.9778
15.233036 22.495 -155.3083
15.343421 22.238 -173.4379
15.454606 22.082 168.2498
15.566596 22.090 150.2429
15.679398 22.242 130.2551
15.793018 22.508 111.7402
15.907460 22.880 94.7285
16.022732 23.341 77.1873
16.138840 23.806 61.7616
16.255788 24.233 47.4802
16.373585 24.622 32.8347
16.492234 24.935 19.9026
16.611744 25.157 7.2696
16.732119 25.285 -5.7369
16.853367 25.306 -17.3179
16.975494 25.217 -29.2266
17.098505 25.007 -41.3767
17.222408 24.663 -52.2674
17.347209 24.183 -63.8763
17.472914 23.534 -75.4489
17.599530 22.702 -85.9869
17.727063 21.658 -97.4313
17.855521 20.288 -108.3461
17.984909 18.524 -118.6206
18.115235 16.405 -129.8462
18.246506 13.848 -139.6417
18.378727 10.942 -146.9160
18.511907 9.525 2.4849
18.646052 11.198 3.8747
18.781169 14.047 -4.7635
18.917265 16.256 -13.3739
19.054347 17.905 -23.4849
19.192423 19.150 -32.1480
19.331499 20.006 -41.0325
19.471583 20.547 -49.6971
19.612682 20.859 -57.0485
19.754804 20.948 -64.4676
19.897956 20.871 -70.5742
20.042144 20.640 -75.7135
20.187378 20.339 -79.9754
20.333664 20.025 -82.6490
20.481010 19.763 -84.3910
20.629424 19.665 -85.7809
20.778913 19.722 -86.7169
20.929486 19.891 -88.8531
21.081150 20.145 -91.9949
21.233912 20.344 -96.4413
21.387782 20.432 -102.8559
21.542767 20.339 -110.2921
21.698874 20.011 -119.8306
21.856113 19.441 -131.1174
22.014492 18.594 -144.8828
22.174018 17.634 -163.2131
22.334700 16.824 173.0719
22.496546 16.410 140.5203
22.659566 16.842 107.6835
22.823766 17.905 79.8169
22.989157 19.071 60.4026
23.155745 20.191 44.7517
23.323542 21.020 33.2401
23.492554 21.547 23.1959
23.662790 21.782 16.0216
23.834261 21.764 10.3993
24.006973 21.598 7.7312
24.180938 21.404 7.5853
24.356163 21.441 10.0010
24.532658 21.785 14.0757
24.710431 22.499 17.4645
24.889493 23.415 19.6249
25.069853 24.311 19.5420
25.251519 25.072 18.3794
25.434502 25.591 16.1956
25.618811 25.849 14.4990
25.804456 25.914 13.5212
25.991445 25.931 14.8379
26.179790 26.001 18.7950
26.369500 26.442 25.2277
26.560584 27.428 32.2427
26.753053 28.881 36.9966
26.946917 30.515 38.5850
27.142185 32.094 37.2770
27.338869 33.499 33.8947
27.536977 34.687 29.1431
27.736522 35.650 23.7079
27.937512 36.400 18.0217
28.139959 36.951 12.3732
28.343872 37.339 7.3323
28.549264 37.594 2.8966
28.756143 37.785 -0.3842
28.964522 37.979 -2.6969
29.174411 38.252 -3.9132
29.385821 38.669 -4.7485
29.598763 39.233 -5.5282
29.813248 39.905 -7.0045
30.029287 40.606 -9.4010
30.246891 41.269 -12.7262
30.466073 41.824 -16.8818
30.686842 42.236 -21.4469
30.909212 42.481 -26.3231
31.133193 42.549 -30.9148
31.358797 42.449 -34.9608
31.586035 42.202 -38.1355
31.814921 41.866 -39.8845
32.045465 41.527 -40.1326
32.277680 41.281 -38.7593
32.511577 41.237 -36.3802
32.747169 41.410 -33.8824
32.984469 41.756 -31.9049
33.223488 42.175 -30.9401
33.464239 42.573 -30.7333
33.706735 42.911 -30.8866
33.950987 43.184 -30.9772
34.197010 43.445 -30.4727
34.444816 43.776 -29.3311
34.694417 44.249 -27.7887
34.945827 44.910 -26.3490
35.199059 45.729 -25.8596
35.454126 46.630 -26.7225
35.711041 47.536 -28.9818
35.969818 48.376 -32.5444
36.230470 49.106 -37.1423
36.493011 49.706 -42.4323
36.757455 50.167 -48.1663
37.023814 50.489 -54.1451
37.292104 50.679 -60.1466
37.562338 50.746 -65.9508
37.834530 50.703 -71.4313
38.108695 50.565 -76.4711
38.384846 50.350 -80.9532
38.662999 50.078 -84.7723
38.943167 49.773 -87.8673
39.225365 49.462 -90.2302
39.509608 49.169 -91.8918
39.795911 48.920 -92.9380
40.084289 48.731 -93.5140
40.374756 48.612 -93.8083
40.667328 48.558 -94.0156
40.962020 48.553 -94.2681
41.258848 48.579 -94.6061
41.557827 48.623 -94.9924
41.858972 48.684 -95.3542
42.162299 48.772 -95.6464
42.467824 48.909 -95.9211
42.775564 49.109 -96.3698
43.085533 49.371 -97.2920
43.397749 49.664 -98.9885
43.712227 49.938 -101.6376
44.028983 50.136 -105.2311
44.348036 50.207 -109.6007
44.669400 50.111 -114.4696
44.993093 49.822 -119.4926
45.319131 49.327 -124.2731
45.647532 48.628 -128.3649
45.978313 47.746 -131.2720
46.311491 46.729 -132.4775
46.647083 45.662 -131.5480
46.985107 44.668 -128.3470
47.325581 43.877 -123.2609
47.668521 43.377 -117.1451
48.013947 43.181 -110.9106
48.361876 43.247 -105.1962
48.712326 43.510 -100.4159
49.065315 43.888 -96.8557
49.420863 44.286 -94.5529
49.778987 44.624 -93.1362
50.139706 44.870 -91.8633
50.503039 45.076 -89.9189
50.869005 45.370 -86.9562
51.237623 45.867 -83.6447
51.608912 46.559 -81.3499
51.982891 47.308 -80.8916
52.359580 47.973 -81.9243
52.739000 48.518 -83.4218
53.121168 49.035 -84.5310
53.506106 49.670 -85.3944
53.893833 50.482 -87.2904
54.284370 51.358 -91.6544
54.677737 52.092 -98.9816
55.073955 52.496 -108.7883
55.473043 52.449 -120.1431
55.875024 51.877 -131.9805
56.279917 50.732 -143.1946
56.687745 48.995 -152.1923
57.098527 46.716 -156.5704
57.512287 44.133 -153.3105
57.929045 41.773 -141.7789
58.348822 40.152 -128.4015
58.771642 39.251 -117.0037
59.197525 38.862 -105.9120
59.626495 38.973 -95.4550
60.058573 39.389 -88.6796
60.493782 39.715 -85.9188
60.932145 39.721 -84.7186
61.373685 39.444 -82.8345
61.818424 39.055 -79.8328
62.266386 38.612 -77.4724
62.717593 37.927 -77.3524
63.172071 36.686 -78.8955
63.629842 34.827 -78.0730
64.090930 33.647 -47.0135
64.555359 35.459 48.5708
65.023154 38.749 59.1766
65.494339 41.871 61.8876
65.968938 44.737 64.3726
66.446976 47.524 66.9021
66.928478 50.293 68.1860
67.413469 52.972 66.7356
67.901975 55.423 61.9298
68.394021 57.512 53.9984
68.889632 59.155 43.9691
69.388835 60.319 33.0461
69.891655 61.027 22.2992
70.398118 61.354 12.8431
70.908252 61.411 5.2502
71.422083 61.319 -0.3027
71.939636 61.154 -4.0248
72.460941 60.966 -5.9474
72.986023 60.835 -5.8378
73.514909 60.889 -3.8140
74.047629 61.232 -0.5317
74.584208 61.940 3.5454
75.124676 63.081 7.7327
75.669061 64.575 9.9089
76.217390 66.125 7.9856
76.769692 67.431 2.3639
77.325997 68.345 -5.1826
77.886333 68.887 -12.6829
78.450730 69.187 -18.9576
79.019216 69.396 -23.7690
79.591822 69.605 -27.7233
80.168577 69.816 -31.3794
80.749512 70.006 -34.7716
81.334656 70.184 -37.6267
81.924040 70.396 -39.8054
82.517696 70.696 -41.4456
83.115653 71.125 -42.9060
83.717943 71.691 -44.6653
84.324598 72.373 -47.2255
84.935649 73.114 -51.0780
85.551128 73.824 -56.6179
86.171066 74.390 -63.9142
86.795497 74.709 -72.5663
87.424453 74.720 -81.8120
88.057967 74.408 -90.8323
88.696071 73.791 -98.9840
89.338800 72.890 -105.7827
89.986185 71.717 -110.5712
90.638262 70.323 -112.0374
91.295065 68.932 -108.1222
91.956626 68.140 -97.1497
92.622982 68.712 -81.6547
93.294166 70.534 -71.1482
93.970214 72.641 -71.4980
94.651161 74.320 -80.3413
95.337042 75.303 -93.6929
96.027894 75.549 -108.4818
96.723752 75.124 -122.4890
97.424652 74.156 -134.1646
98.130631 72.813 -142.6609
98.841726 71.269 -147.8429
99.557974 69.682 -150.1260
100.279412 68.171 -150.2714
101.006078 66.795 -149.0603
101.738010 65.563 -147.0605
102.475245 64.446 -144.9797
103.217823 63.338 -143.7958
103.965782 62.030 -143.7161
104.719161 60.288 -142.6716
105.477999 58.137 -133.8624
106.242336 56.522 -103.2017
107.012212 57.031 -65.4701
107.787666 59.110 -47.1273
108.568740 61.516 -38.1012
109.355474 63.936 -32.4266
110.147909 66.317 -29.6605
110.946086 68.463 -31.8713
111.750047 70.124 -38.8013
112.559834 71.212 -47.6949
113.375489 71.824 -55.9014
114.197055 72.156 -62.2273
115.024574 72.385 -66.7920
115.858089 72.639 -70.0133
116.697645 73.021 -72.3862
117.543284 73.545 -75.4167
118.395051 74.035 -80.8340
119.252990 74.235 -88.3467
120.117147 74.028 -95.8640
120.987565 73.472 -101.4811
121.864291 72.706 -104.5226
122.747370 71.888 -104.5686
123.636848 71.306 -100.3594
124.532771 71.441 -91.8445
125.435187 72.465 -84.6764
126.344142 73.851 -84.6149
127.259684 75.058 -90.4276
128.181860 75.930 -98.8864
129.110718 76.546 -108.4647
130.046308 76.967 -119.8517
130.988677 77.083 -134.4243
131.937875 76.667 -152.2283
132.893951 75.533 -171.7053
133.856956 73.652 168.8481
134.826938 71.179 148.7488
135.803950 68.461 122.9407
136.788041 66.378 84.8356
137.779264 66.589 46.0298
138.777669 68.769 21.2104
139.783309 70.928 0.9429
140.796237 72.269 -17.7699
141.816504 72.923 -31.6661
142.844165 73.403 -39.3666
143.879273 74.003 -44.7299
144.921881 74.594 -50.9969
145.972045 74.998 -57.8062
147.029819 75.180 -63.9337
148.095257 75.201 -68.9331
149.168417 75.126 -72.6879
150.249353 75.129 -73.8972
151.338121 75.510 -73.0282
152.434780 76.316 -74.2300
153.539385 77.226 -80.3828
154.651995 77.826 -92.1934
155.772667 77.719 -108.9639
156.901460 76.588 -127.8856
158.038432 74.322 -144.1202
159.183644 71.420 -140.8250
160.337154 69.991 -43.8315
161.499023 70.939 -42.3898
162.669312 72.119 -50.8777
163.848081 72.957 -55.1100
165.035392 73.863 -54.6918
166.231306 74.863 -56.5253
167.435887 75.476 -63.9539
168.649196 75.380 -72.3484
169.871298 74.957 -72.8618
171.102255 75.376 -60.8704
172.342133 76.860 -54.2742
173.590995 78.173 -62.5413
174.848907 78.532 -76.8425
176.115934 77.900 -89.0457
177.392143 76.590 -95.3169
178.677599 74.993 -95.1578
179.972371 73.550 -88.8772
181.276525 72.984 -74.0758
182.590129 74.073 -54.6569
183.913252 76.363 -43.5538
185.245964 78.862 -42.6161
186.588332 80.953 -50.4756
187.940428 82.235 -65.7861
189.302322 82.493 -84.4672
190.674085 81.684 -102.2753
192.055788 79.883 -113.7208
193.447503 77.682 -105.6084
194.849303 76.709 -79.3645
196.261262 77.349 -72.8784
197.683452 78.270 -75.7767
199.115948 79.206 -77.0913
200.558824 80.476 -76.8054
202.012156 81.971 -80.7717
203.476019 83.159 -92.4443
204.950490 83.584 -109.6652
206.435646 83.011 -128.1017
207.931564 81.441 -141.8815
209.438322 79.221 -147.3221
210.955998 77.115 -142.8174
212.484672 76.695 -119.8202
214.024424 78.299 -106.7310
215.575333 79.928 -118.2703
217.137481 80.688 -137.5332
218.710948 80.800 -157.8158
220.295818 80.396 177.5668
221.892172 79.168 148.5641
223.500094 77.149 127.4398
225.119668 75.494 122.9937
226.750978 74.910 72.7032
228.394109 74.346 -7.2527
230.049147 73.411 -62.8484
231.716178 72.377 -100.0190
233.395289 71.453 -130.2104
235.086567 70.850 -160.6943
236.790102 71.268 165.1665
238.505980 73.555 129.0605
240.234293 76.532 90.2961
241.975130 78.482 45.3391
243.728581 78.602 -1.1741
245.494739 76.848 -38.8513
247.273695 73.833 -61.5259
249.065542 71.406 -80.5718
250.870374 72.601 -143.8674
252.688284 75.985 98.5132
254.519367 79.043 50.9783
256.363720 80.951 6.0327
258.221437 81.394 -42.7539
260.092616 80.284 -94.3108
261.977354 77.763 -153.3308
263.875750 74.408 13.9971
265.787903 71.819 96.7744
267.713911 72.207 89.6685
269.653877 74.176 72.1433
271.607900 75.948 56.0686
273.576083 76.654 36.0698
275.558528 76.267 26.6143
277.555338 76.042 32.3796
279.566619 76.604 29.5073
281.592474 77.511 23.3303
283.633009 78.247 13.1431
285.688331 78.164 -2.0715
287.758546 77.201 -9.5769
289.843763 76.484 -2.1150
291.944090 76.861 0.0601
294.059638 77.837 0.0654
296.190515 78.654 -10.5510
298.336833 78.717 -32.2903
300.498705 78.183 -58.9741
302.676243 77.532 -94.9958
304.869559 77.342 60.9282
307.078770 77.606 27.7886
309.303989 77.338 0.9561
311.545334 76.358 -14.4387
313.802919 75.539 -20.9749
316.076865 75.569 -5.6428
318.367288 76.234 -3.0747
320.674309 76.676 -24.1931
322.998047 76.410 -53.2136
325.338624 75.335 -89.2371
327.696162 73.800 -146.3044
330.070783 72.548 61.7446
332.462612 71.806 -11.6223
334.871773 71.326 -135.5386
337.298392 71.881 152.0334
339.742595 73.258 120.2690
342.204510 74.613 100.0732
344.684265 76.145 92.1660
347.181989 77.745 80.7588
349.697813 78.953 63.4314
352.231868 79.373 40.0740
354.784285 78.509 15.1052
357.355198 76.641 5.9856
359.944741 75.651 24.1992
362.553049 76.162 17.3140
365.180258 76.242 8.4814
367.826505 75.689 71.8831
370.491927 75.240 58.2944
373.176665 75.235 45.2954
375.880856 75.417 31.5906
378.604644 75.900 22.2781
381.348169 76.583 3.4995
384.111575 76.393 -28.8987
386.895006 74.840 -64.1177
389.698607 72.350 -93.2712
392.522524 70.307 -108.5681
395.366904 69.855 -137.1111
398.231895 70.424 -176.2205
401.117648 71.095 147.5881
404.024312 71.090 113.8086
406.952038 70.197 86.9375
409.900981 69.258 71.1252
412.871292 68.783 38.0608
415.863128 68.226 -74.3076
418.876643 68.077 -167.8455
421.911996 69.613 162.1921
424.969344 72.160 169.0383
428.048847 73.980 154.5674
431.150666 74.079 106.5615
434.274961 72.676 35.2373
437.421897 71.145 -79.0737
440.591636 70.887 -127.1670
443.784345 71.307 -155.7744
447.000189 71.078 -179.5957
450.239337 70.247 170.7002
453.501956 69.795 164.9824
456.788219 69.479 151.2275
460.098294 68.527 141.6387
463.432356 67.380 140.4678
466.790578 66.419 130.4136
470.173135 65.023 120.7788
473.580203 63.297 122.6421
477.011961 61.958 116.0918
480.468586 61.730 145.6777
483.950259 62.877 -110.5791
487.457163 64.018 -123.1016
490.989478 64.124 -153.5791
494.547390 63.323 -174.4771
498.131084 63.465 -135.4805
501.740748 65.137 -106.2798
505.376568 66.034 -130.8882
509.038735 65.601 -151.8726
512.727439 64.981 -177.9404
516.442874 64.603 132.8682
520.185232 63.993 48.6660
523.954708 63.358 -17.2705
527.751500 63.259 -48.5439
531.575805 63.219 -74.7363
535.427822 62.564 -97.8076
539.307753 62.095 -114.3340
543.215800 62.472 -137.7915
547.152165 63.577 177.7461
551.117055 65.493 109.1885
555.110677 68.150 52.3706
559.133237 70.601 -0.1772
563.184947 71.898 143.7817
567.266018 71.770 76.6621
571.376661 70.678 52.1694
575.517092 69.690 59.8145
579.687526 68.977 43.5869
583.888181 68.552 56.9014
588.119275 69.091 65.6436
592.381030 70.156 49.7915
596.673667 70.988 39.5210
600.997410 71.788 49.8032
605.352485 72.367 37.0996
609.739119 72.193 14.6055
614.157540 71.502 1.0669
618.607979 71.539 -4.7437
623.090667 72.290 -28.3228
627.605839 73.022 105.0679
632.153730 73.275 68.4502
636.734576 73.113 42.1519
641.348617 72.687 18.2900
645.996094 71.233 -7.4438
650.677248 68.827 10.5859
655.392323 66.936 47.3228
660.141566 66.449 47.3779
664.925224 67.116 35.1860
669.743546 68.505 13.6035
674.596784 69.530 -168.8296
679.485191 69.273 -178.8076
684.409020 68.428 163.1494
689.368530 68.549 166.5938
694.363979 69.720 161.3843
699.395626 71.045 139.3145
704.463736 72.055 107.1123
709.568570 72.811 63.3364
714.710396 72.918 -48.3477
719.889483 71.831 -162.3354
725.106099 69.757 161.8618
730.360516 67.855 -171.7393
735.653010 67.267 -137.2383
740.983855 67.541 -153.8755
746.353329 69.001 -160.0410
751.761713 71.284 -149.4512
757.209288 72.882 -171.9390
762.696339 73.191 140.9917
768.223151 73.248 -20.1099
773.790013 73.833 -87.3486
779.397214 74.396 -127.2783
785.045047 74.257 -164.6636
790.733808 73.198 156.6177
796.463791 71.677 107.3110
802.235296 70.544 11.0352
808.048623 70.306 -61.4873
813.904077 70.569 -88.8960
819.801961 70.370 -114.1514
825.742584 68.908 -139.0312
831.726255 67.230 -150.6782
837.753287 67.342 -168.5801
843.823992 68.286 145.3809
849.938689 68.452 83.8848
856.097695 68.047 52.1841
862.301332 67.494 63.7012
868.549922 67.252 57.9448
874.843793 68.815 58.4570
881.183272 70.803 44.3232
887.568689 71.125 19.1504
894.000378 69.938 13.5244
900.478673 69.467 25.0796
907.003913 70.349 17.1411
913.576437 71.414 3.3384
920.196588 71.843 -17.0894
926.864712 71.514 -37.9717
933.581156 71.194 -59.2305
940.346270 70.503 -88.7090
947.160407 68.772 -120.7920
954.023921 66.747 -151.7295
960.937172 65.371 173.7769
967.900519 64.716 160.8950
974.914325 65.658 174.3311
981.978956 67.235 146.2383
989.094780 68.427 109.5928
996.262169 69.675 77.4194
1003.481495 70.893 44.4072
1010.753136 71.421 6.0508
1018.077470 71.088 -27.2896
1025.454879 70.214 -27.0366
1032.885748 69.540 -29.1592
1040.370463 69.438 -51.1890
1047.909417 69.814 -66.6616
1055.503000 70.702 -73.5176
1063.151610 71.425 -100.3135
1070.855645 71.293 -139.0435
1078.615506 70.903 -164.1611
1086.431599 71.630 178.7817
1094.304330 72.699 132.4497
1102.234110 72.575 77.3911
1110.221353 71.032 69.6880
1118.266475 69.198 79.1636
1126.369895 69.078 66.5312
1134.532035 70.033 42.2427
1142.753322 70.494 17.2988
1151.034184 70.150 -1.7227
1159.375052 69.036 -23.3086
1167.776361 68.023 125.8745
1176.238550 68.212 101.6479
1184.762060 68.727 76.3057
1193.347334 67.981 56.7163
1201.994821 66.185 92.4990
1210.704971 65.760 131.8755
1219.478238 67.067 129.4185
1228.315080 68.334 117.6123
1237.215957 69.114 103.7095
1246.181334 69.363 82.5557
1255.211678 69.214 58.2031
1264.307459 68.885 15.9287
1273.469152 68.211 -141.4380
1282.697235 67.372 -125.9604
1291.992188 66.625 -88.3433
1301.354495 66.162 -97.7017
1310.784647 65.683 -105.4814
1320.283132 65.544 -100.5806
1329.850448 65.745 -79.1689
1339.487093 66.171 -68.5796
1349.193569 66.650 -58.2275
1358.970381 67.339 -45.7217
1368.818041 68.016 -52.8823
1378.737061 68.049 -63.6216
1388.727958 67.838 -56.9624
1398.791253 68.196 -47.0342
1408.927471 68.357 -49.8335
1419.137140 68.154 -29.3760
1429.420793 68.312 -10.8477
1439.778965 69.141 20.6958
1450.212197 69.483 42.1221
1460.721033 68.867 35.7583
1471.306019 68.529 19.0771
1481.967709 68.459 111.3296
1492.706658 68.589 119.8198
1503.523426 68.945 102.5938
1514.418576 69.103 81.1821
1525.392678 68.382 61.4453
1536.446302 67.700 68.6606
1547.580025 68.014 173.3389
1558.794428 68.289 175.2441
1570.090095 68.372 141.5566
1581.467615 68.854 -1.3813
1592.927581 69.346 -87.1240
1604.470591 68.966 -96.9556
1616.097246 68.549 -62.6392
1627.808153 68.413 -80.3433
1639.603922 67.823 -93.8262
1651.485168 67.271 -77.8047
1663.452510 67.015 -64.7495
1675.506573 66.751 -49.2466
1687.647984 66.806 8.4619
1699.877377 67.206 -0.9443
1712.195390 67.784 -0.3921
1724.602663 68.014 -9.2515
1737.099845 67.042 -14.1235
1749.687587 66.085 104.0063
1762.366544 66.481 114.4790
1775.137379 67.365 123.4077
1788.000756 67.789 113.8052
1800.957346 67.792 140.0566
1814.007826 67.642 150.4316
1827.152874 67.209 140.6670
1840.393177 67.399 -154.3516
1853.729425 68.419 -118.2197
1867.162312 68.830 -118.2573
1880.692540 68.758 -107.3794
1894.320813 68.269 -94.0308
1908.047843 67.414 -97.7261
1921.874344 67.321 -54.5845
1935.801038 68.802 -19.3589
1949.828650 70.366 -10.3984
1963.957912 70.577 29.0742
1978.189561 69.596 21.3120
1992.524338 68.447 19.5420
2006.962991 67.916 25.2847
2021.506272 67.657 16.3232
2036.154940 67.823 127.2896
2050.909758 68.736 135.5425
2065.771495 69.724 127.5215
2080.740927 69.846 128.0771
2095.818833 69.023 149.8110
2111.006001 68.334 163.7090
2126.303220 68.168 -124.9893
2141.711290 67.938 -107.1509
2157.231013 67.531 -96.7559
2172.863198 67.280 -81.8271
2188.608660 67.134 -74.5977
2204.468221 67.277 -47.5469
2220.442706 67.212 -37.2349
2236.532950 67.068 -32.4258
2252.739789 67.257 -5.6929
2269.064070 67.354 16.6519
2285.506644 67.739 40.6064
2302.068367 68.340 66.1567
2318.750104 68.264 113.0664
2335.552723 67.985 127.5298
2352.477101 67.689 132.3008
2369.524119 67.563 151.8540
2386.694668 68.079 175.3794
2403.989641 68.760 -179.0195
2421.409941 68.709 -161.5317
2438.956476 68.130 -126.4189
2456.630160 67.481 -105.8301
2474.431915 66.780 -83.6562
2492.362668 66.545 -61.5527
2510.423356 67.063 -36.3521
2528.614918 67.506 -13.5674
2546.938304 67.537 4.7588
2565.394469 67.567 16.5649
2583.984375 67.808 31.8892
2602.708991 67.751 69.9204
2621.569293 67.038 79.0967
2640.566265 66.625 88.0615
2659.700897 67.166 -174.6260
2678.974186 67.657 -161.2441
2698.387137 67.867 -153.6230
2717.940763 68.351 -130.4980
2737.636082 68.454 -105.4492
2757.474121 67.762 -79.8027
2777.455915 67.005 -57.0410
2797.582506 67.020 -25.3032
2817.854942 67.321 -5.6382
2838.274281 67.587 17.2588
2858.841586 67.956 42.9648
2879.557931 68.347 68.4727
2900.424394 68.624 95.3901
2921.442065 68.786 116.5073
2942.612039 68.442 131.3247
2963.935418 68.230 165.2441
2985.413316 68.506 -167.0688
3007.046852 68.678 -146.7339
3028.837153 69.047 -101.9883
3050.785356 69.550 -63.1543
3072.892604 69.617 -42.6572
3095.160050 69.676 -27.6636
3117.588856 70.270 -14.1270
3140.180190 70.660 24.8105
3162.935230 70.066 62.3086
3185.855163 69.537 108.5713
3208.941182 69.811 137.5732
3232.194493 69.655 153.8242
3255.616307 69.447 -179.8379
3279.207844 69.806 -143.5859
3302.970336 70.028 -108.5161
3326.905021 69.862 -79.4927
3351.013146 69.641 -54.6416
3375.295969 69.602 -26.5044
3399.754755 69.780 0.2075
3424.390779 70.318 20.2290
3449.205326 70.396 36.0693
3474.199690 69.775 77.9453
3499.375173 69.062 122.4697
3524.733088 68.704 167.1841
3550.274757 68.963 -155.2422
3576.001511 69.526 -137.3438
3601.914692 69.487 -122.2656
3628.015651 69.198 -86.8398
3654.305748 69.334 -51.1748
3680.786354 69.555 -21.4004
3707.458849 69.769 27.5688
3734.324624 69.971 56.2842
3761.385080 70.027 74.3665
3788.641627 69.810 90.9253
3816.095686 69.556 108.9458
3843.748688 69.633 -173.4546
3871.602076 70.130 -109.5083
3899.657300 70.979 -88.0859
3927.915825 71.360 -77.6609
3956.379122 70.684 -74.5056
3985.048676 69.247 -50.0117
4013.925981 68.319 71.9978
4043.012544 68.394 90.1047
4072.309879 68.332 96.9578
4101.819515 67.960 108.5388
4131.542990 67.798 121.3855
4161.481854 68.136 -66.9443
4191.637667 68.709 -66.5669
4222.012001 68.996 -67.0471
4252.606441 69.010 -61.7971
4283.422580 68.885 -11.7957
4314.462026 68.865 79.8896
4345.726396 69.013 99.8303
4377.217321 69.149 108.9500
4408.936442 69.034 110.4221
4440.885413 69.015 -54.0857
4473.065899 69.015 -71.6741
4505.479579 69.098 -82.6262
4538.128141 69.559 -95.9053
4571.013288 70.049 132.4375
4604.136735 70.164 161.0098
4637.500207 69.680 167.8423
4671.105446 69.164 177.5188
4704.954201 68.873 -47.8379
4739.048239 68.667 -18.1294
4773.389336 68.609 -5.1113
4807.979283 68.326 8.2146
4842.819883 68.648 3.4534
4877.912952 69.439 -154.7026
4913.260320 69.606 -162.6814
4948.863830 69.155 -163.2300
4984.725337 68.614 -154.5354
5020.846712 68.782 59.0803
5057.229836 69.053 55.3784
5093.876609 68.870 66.4409
5130.788938 68.420 112.1038
5167.968750 68.173 175.8779
5205.417982 67.931 -145.5693
5243.138586 67.789 -106.1387
5281.132530 67.586 -72.7441
5319.401793 67.517 -38.3394
5357.948371 67.993 23.6838
5396.774274 68.339 91.9458
5435.881525 68.628 133.6978
5475.272163 68.913 168.1265
5514.948243 68.639 -131.2571
5554.911831 68.735 -76.1311
5595.165012 69.469 -35.3872
5635.709884 69.858 6.6465
5676.548561 69.314 55.6143
5717.683172 68.346 133.1860
5759.115861 67.949 -178.8665
5800.848789 68.225 -142.5325
5842.884130 68.389 -106.0442
5885.224077 68.510 -37.2563
5927.870837 68.897 19.5874
5970.826633 69.254 53.3564
6014.093704 69.159 87.8623
6057.674306 68.986 164.4377
6101.570711 69.443 -137.2778
6145.785208 69.778 -114.1414
6190.320101 69.528 -86.3425
6235.177712 69.570 60.2744
6280.360380 69.889 86.7671
6325.870460 69.490 96.1194
6371.710325 68.697 -76.6042
6417.882365 68.544 -61.3247
6464.388986 68.745 -49.8176
6511.232613 69.004 -25.3682
6558.415689 69.023 136.5090
6605.940673 68.800 150.1653
6653.810042 68.641 161.8877
6702.026292 68.587 -11.3215
6750.591937 68.433 -4.4980
6799.509509 68.243 -0.5605
6848.781558 68.470 -145.1897
6898.410653 68.632 -142.0769
6948.399380 68.399 -120.1343
6998.750346 68.004 14.8184
7049.466176 67.844 54.6086
7100.549514 67.969 92.3416
7152.003023 67.999 -161.8936
7203.829385 67.562 -106.7700
7256.031302 66.482 -62.2985
7308.611496 66.061 25.5446
7361.572708 66.930 92.3118
7414.917698 67.287 139.7185
7468.649249 66.758 -144.6707
7522.770160 66.290 -78.2513
7577.283253 66.172 -20.2355
7632.191371 66.435 78.6666
7687.497376 66.643 139.6842
7743.204151 66.702 -159.1409
7799.314600 67.301 -73.3730
7855.831649 67.740 -10.6312
7912.758244 67.797 59.0605
7970.097352 68.061 138.4155
8027.851962 68.170 -167.2017
8086.025087 68.017 -96.0076
8144.619758 67.618 -16.8628
8203.639030 66.825 44.6258
8263.085980 65.878 133.0108
8322.963708 65.270 -158.2646
8383.275334 65.383 -89.9123
8444.024002 65.722 9.6127
8505.212881 65.444 86.0651
8566.845160 65.158 162.1746
8628.924051 65.389 -115.0760
8691.452792 65.430 -44.3060
8754.434642 65.673 39.3107
8817.872884 65.916 116.4218
8881.770826 65.459 -170.0041
8946.131799 65.220 -47.9955
9010.959157 65.618 36.4370
9076.256282 65.896 129.8491
9142.026576 65.639 -139.7787
9208.273470 65.049 -42.7672
9275.000415 64.428 57.8580
9342.210891 64.136 139.1886
9409.908403 64.198 -131.2269
9478.096478 64.494 -37.2764
9546.778672 64.891 48.9678
9615.958566 65.074 135.9017
9685.639765 64.750 -148.7283
9755.825904 64.654 -60.6389
9826.520640 65.016 25.5792
9897.727659 65.337 111.0358
9969.450674 65.526 -164.8785
10041.693423 65.317 -83.5609
10114.459673 64.777 9.0138
10187.753217 64.312 100.9600
10261.577877 64.123 -162.4509
10335.937500 64.198 -68.5417
10410.835964 64.069 40.5330
10486.277173 63.439 147.1094
10562.265060 62.981 -111.1597
10638.803587 62.956 -17.3989
10715.896743 62.942 73.8308
10793.548548 62.813 172.9016
10871.763050 62.705 -87.9927
10950.544327 62.531 10.3701
11029.896485 62.165 103.9368
11109.823662 61.661 -158.5591
11190.330024 61.350 -52.9675
11271.419768 61.516 52.7822
11353.097122 61.530 153.9255
11435.366344 61.349 -111.3032
11518.231722 61.156 -10.6963
11601.697577 61.253 102.2192
11685.768261 61.487 -134.1926
11770.448155 61.666 -28.7861
11855.741674 61.629 81.3916
11941.653265 61.366 -176.0381
12028.187408 60.718 -17.1050
12115.348612 60.175 120.0938
12203.141422 60.069 -120.9805
12291.570415 59.954 -10.3936
12380.640201 60.224 101.6919
12470.355424 60.367 -144.2148
12560.720760 60.044 -35.9966
12651.740920 59.509 79.3130
12743.420650 59.289 -161.6035
12835.764729 59.176 -27.4092
12928.777972 59.135 93.3423
13022.465227 59.646 -149.4844
13116.831378 59.830 -34.4443
13211.881345 59.180 82.1812
13307.620084 58.374 -159.5063
13404.052584 58.144 -29.8735
13501.183875 58.471 98.0303
13599.019019 58.600 -143.4546
13697.563116 58.337 -24.9248
13796.821305 57.973 99.5664
13896.798760 57.729 -120.4141
13997.500692 57.734 19.5161
14098.932352 57.870 149.9502
14201.099028 58.140 -84.8379
14304.006046 58.172 41.2251
14407.658770 57.984 172.4434
14512.062604 57.654 -50.0210
14617.222992 57.128 93.5488
14723.145416 56.743 -117.2852
14829.835397 56.332 31.2617
14937.298497 55.791 169.1260
15045.540320 55.648 -54.4072
15154.566507 55.930 81.0254
15264.382743 55.923 -141.9590
15374.994752 55.268 -3.1572
15486.408302 54.569 141.0293
15598.629201 54.427 -69.7441
15711.663298 54.343 80.2266
15825.516487 53.763 -123.4746
15940.194703 52.991 33.4268
16055.703925 52.664 -179.0020
16172.050174 52.657 -36.0439
16289.239516 52.392 107.3369
16407.278061 52.604 -104.3760
16526.171961 53.830 51.5527
16645.927415 54.892 -156.5879
16766.550667 55.086 -8.0400
16888.048005 54.875 141.9521
17010.425762 54.471 -62.6562
17133.690320 53.511 100.2197
17257.848103 52.366 -98.0537
17382.905584 51.763 69.9434
17508.869284 51.493 -119.6309
17635.745768 50.901 40.4385
17763.541652 50.266 -163.0518
17892.263597 49.742 -6.7793
18021.918315 49.098 149.0908
18152.512564 48.292 -55.0186
18284.053153 47.414 106.6133
18416.546939 46.544 -85.3398
18550.000830 45.909 90.0322
18684.421783 45.374 -92.0771
18819.816805 44.640 75.1895
18956.192956 43.463 -119.7910
19093.557344 42.198 49.6992
19231.917131 41.339 -97.3457
19371.279531 40.377 125.1680
19511.651807 39.411 -49.2461
19653.041280 38.515 118.5566
19795.455318 37.410 -73.2793
19938.901348 36.556 92.2275
