* Measurement data measured by REW V5.31
* Source: Scarlett 2i4 USB, MICROPHONE, R, volume: no control. Timing signal peak level -31.0 dBFS, measurement signal peak level -23.5 dBFS
* Format: 512k Log Swept Sine, 1 sweep at -18.0 dBFS using an acoustic timing reference
* Dated: Apr 16, 2024 9:59:47 AM
* REW Settings:
*  C-weighting compensation: Off
*  Target level: 75.0 dB
* Note: ; Delay -4.2796 ms (-1.468 m, -(4 ft 9.8 in)) using IR start time relative to Acoustic reference played from SPEAKER L with no timing offset
* Measurement: curtains-p1-rr
* Smoothing: 1/48 octave
* Frequency Step: 96 ppo
* Start Frequency: 10.093689 Hz
*
* Freq(Hz) SPL(dB) Phase(degrees)
10.093689 17.348 -3.1006
10.166832 17.636 -4.0168
10.240505 17.985 -5.1109
10.314712 18.345 -6.5159
10.389457 18.708 -8.3622
10.464743 19.076 -10.7604
10.540575 19.451 -13.5747
10.616956 19.827 -16.6876
10.693891 20.190 -20.0621
10.771383 20.530 -23.7227
10.849437 20.846 -27.8192
10.928057 21.141 -32.2685
11.007246 21.415 -36.8912
11.087009 21.667 -41.5895
11.167350 21.894 -46.5046
11.248273 22.098 -51.8178
11.329783 22.280 -57.2839
11.411883 22.439 -62.7044
11.494578 22.578 -68.1157
11.577873 22.694 -73.8787
11.661771 22.787 -79.7654
11.746277 22.859 -85.5156
11.831395 22.909 -91.0860
11.917130 22.936 -96.8945
12.003487 22.939 -102.7505
12.090469 22.918 -108.3696
12.178081 22.871 -113.6906
12.266329 22.798 -119.0901
12.355216 22.699 -124.4082
12.444747 22.574 -129.3693
12.534926 22.421 -133.9484
12.625760 22.241 -138.3816
12.717251 22.043 -142.5685
12.809406 21.834 -146.3033
12.902228 21.607 -149.5275
12.995723 21.374 -152.3666
13.089895 21.161 -154.8836
13.184750 20.984 -156.9891
13.280292 20.836 -158.5011
13.376526 20.733 -159.7243
13.473458 20.697 -161.0061
13.571093 20.740 -162.1268
13.669434 20.846 -163.1439
13.768489 20.993 -164.4676
13.868261 21.174 -166.3244
13.968756 21.391 -168.4640
14.069979 21.608 -170.9571
14.171936 21.792 -173.9717
14.274632 21.947 -177.6139
14.378072 22.058 178.3569
14.482261 22.098 174.0970
14.587206 22.063 169.1934
14.692910 21.947 163.7407
14.799381 21.731 158.1730
14.906624 21.407 152.1599
15.014643 20.970 145.2991
15.123446 20.395 138.1554
15.233036 19.662 130.6205
15.343421 18.774 121.6450
15.454606 17.729 111.6275
15.566596 16.470 100.4295
15.679398 15.046 85.5609
15.793018 13.819 66.3936
15.907460 13.087 42.3151
16.022732 12.828 11.6268
16.138840 13.053 -16.1763
16.255788 13.828 -37.7618
16.373585 14.952 -55.4446
16.492234 15.979 -68.5589
16.611744 16.749 -79.9750
16.732119 17.322 -90.7036
16.853367 17.676 -99.6530
16.975494 17.802 -108.5719
17.098505 17.698 -117.3917
17.222408 17.359 -125.0500
17.347209 16.783 -133.0964
17.472914 15.900 -140.9929
17.599530 14.669 -147.8669
17.727063 13.053 -155.0242
17.855521 10.864 -161.4788
17.984909 7.709 -165.2723
18.115235 4.669 -161.8978
18.246506 4.088 -64.6383
18.378727 6.041 -30.8887
18.511907 8.313 -31.1060
18.646052 10.090 -36.0710
18.781169 11.479 -41.8962
18.917265 12.312 -46.6517
19.054347 12.604 -52.1855
19.192423 12.455 -56.2484
19.331499 11.873 -58.7950
19.471583 10.986 -59.4952
19.612682 9.932 -55.3298
19.754804 8.935 -44.5453
19.897956 8.916 -28.7647
20.042144 10.123 -12.6949
20.187378 11.781 -3.5361
20.333664 13.450 -0.7609
20.481010 14.994 -1.1256
20.629424 16.166 -3.5964
20.778913 17.000 -7.3824
20.929486 17.543 -11.1281
21.081150 17.798 -15.4159
21.233912 17.791 -18.9047
21.387782 17.525 -21.7933
21.542767 17.048 -23.3685
21.698874 16.375 -22.7101
21.856113 15.697 -19.5227
22.014492 15.232 -12.8866
22.174018 15.142 -3.5139
22.334700 15.666 5.9802
22.496546 16.638 13.9397
22.659566 17.759 18.8947
22.823766 18.933 21.6167
22.989157 19.998 22.7510
23.155745 20.948 22.8278
23.323542 21.791 22.4346
23.492554 22.537 21.6800
23.662790 23.210 20.8062
23.834261 23.813 19.8350
24.006973 24.349 18.8622
24.180938 24.813 17.9523
24.356163 25.196 17.3448
24.532658 25.510 17.1831
24.710431 25.777 17.9694
24.889493 26.066 19.8240
25.069853 26.480 23.1660
25.251519 27.126 27.3445
25.434502 28.095 31.9166
25.618811 29.321 35.1599
25.804456 30.739 36.9002
25.991445 32.180 36.3097
26.179790 33.570 34.1199
26.369500 34.824 30.3180
26.560584 35.922 25.5636
26.753053 36.840 19.9865
26.946917 37.576 14.1082
27.142185 38.128 7.8926
27.338869 38.502 1.9713
27.536977 38.704 -3.8069
27.736522 38.756 -8.7686
27.937512 38.689 -12.9573
28.139959 38.551 -15.8865
28.343872 38.431 -17.6094
28.549264 38.404 -18.0417
28.756143 38.563 -17.8746
28.964522 38.912 -17.7110
29.174411 39.423 -18.2322
29.385821 39.989 -19.9489
29.598763 40.537 -22.7377
29.813248 40.984 -26.5396
30.029287 41.292 -30.8171
30.246891 41.440 -35.4465
30.466073 41.423 -39.7975
30.686842 41.260 -43.5853
30.909212 40.983 -46.4684
31.133193 40.669 -47.9973
31.358797 40.411 -48.2462
31.586035 40.300 -47.2760
31.814921 40.412 -46.0009
32.045465 40.720 -45.1830
32.277680 41.157 -45.3496
32.511577 41.610 -46.8232
32.747169 41.998 -49.2748
32.984469 42.270 -52.4408
33.223488 42.395 -55.9158
33.464239 42.374 -59.1567
33.706735 42.229 -61.8705
33.950987 42.000 -63.6682
34.197010 41.765 -64.2500
34.444816 41.617 -63.7550
34.694417 41.626 -62.5356
34.945827 41.833 -61.2776
35.199059 42.191 -60.8453
35.454126 42.615 -61.5571
35.711041 43.019 -63.4208
35.969818 43.330 -66.2701
36.230470 43.503 -69.6757
36.493011 43.524 -73.2161
36.757455 43.398 -76.5566
37.023814 43.149 -79.3615
37.292104 42.819 -81.3260
37.562338 42.466 -82.3788
37.834530 42.143 -82.6493
38.108695 41.882 -82.3884
38.384846 41.690 -81.9194
38.662999 41.545 -81.4951
38.943167 41.418 -81.1498
39.225365 41.291 -80.7859
39.509608 41.166 -80.3317
39.795911 41.046 -79.7983
40.084289 40.927 -79.2827
40.374756 40.782 -78.8867
40.667328 40.560 -78.5146
40.962020 40.217 -77.6595
41.258848 39.765 -75.3804
41.557827 39.337 -70.4445
41.858972 39.219 -62.0913
42.162299 39.710 -51.7351
42.467824 40.832 -43.0348
42.775564 42.278 -38.4388
43.085533 43.712 -37.7710
43.397749 44.959 -39.8275
43.712227 45.967 -43.4876
44.028983 46.736 -47.9424
44.348036 47.290 -52.6438
44.669400 47.662 -57.2246
44.993093 47.888 -61.4502
45.319131 48.008 -65.1987
45.647532 48.056 -68.4491
45.978313 48.059 -71.2621
46.311491 48.031 -73.7442
46.647083 47.978 -75.9985
46.985107 47.896 -78.0814
47.325581 47.780 -79.9866
47.668521 47.630 -81.6633
48.013947 47.453 -83.0629
48.361876 47.259 -84.1872
48.712326 47.053 -85.1082
49.065315 46.832 -85.9286
49.420863 46.574 -86.6927
49.778987 46.255 -87.2981
50.139706 45.856 -87.4669
50.503039 45.384 -86.8098
50.869005 44.877 -84.9714
51.237623 44.396 -81.8090
51.608912 43.997 -77.4067
51.982891 43.725 -71.7645
52.359580 43.671 -64.4719
52.739000 44.019 -55.2149
53.121168 44.944 -45.3528
53.506106 46.363 -38.0034
53.893833 47.966 -35.0946
54.284370 49.456 -36.2738
54.677737 50.669 -40.2321
55.073955 51.552 -45.6714
55.473043 52.116 -51.5515
55.875024 52.406 -57.1008
56.279917 52.495 -61.8367
56.687745 52.464 -65.5477
57.098527 52.385 -68.3428
57.512287 52.302 -70.5394
57.929045 52.222 -72.4355
58.348822 52.138 -74.1802
58.771642 52.046 -75.8362
59.197525 51.940 -77.5052
59.626495 51.803 -79.3556
60.058573 51.595 -81.4905
60.493782 51.262 -83.7687
60.932145 50.759 -85.7174
61.373685 50.077 -86.6315
61.818424 49.264 -85.6665
62.266386 48.438 -82.1418
62.717593 47.771 -75.9243
63.172071 47.437 -67.8126
63.629842 47.511 -59.3412
64.090930 47.934 -51.9012
64.555359 48.568 -46.1265
65.023154 49.285 -41.9026
65.494339 50.016 -38.8095
65.968938 50.737 -36.4869
66.446976 51.442 -34.7943
66.928478 52.121 -33.7157
67.413469 52.758 -33.2043
67.901975 53.340 -33.1456
68.394021 53.858 -33.4266
68.889632 54.303 -33.9664
69.388835 54.663 -34.6381
69.891655 54.930 -35.2189
70.398118 55.113 -35.3989
70.908252 55.237 -34.9360
71.422083 55.336 -33.6534
71.939636 55.453 -31.3582
72.460941 55.663 -27.7628
72.986023 56.078 -22.8358
73.514909 56.794 -17.2316
74.047629 57.821 -12.0992
74.584208 59.090 -8.2743
75.124676 60.516 -6.0998
75.669061 62.018 -5.7921
76.217390 63.505 -7.5970
76.769692 64.885 -11.4352
77.325997 66.093 -16.8791
77.886333 67.103 -23.3523
78.450730 67.919 -30.4042
79.019216 68.549 -37.8003
79.591822 68.992 -45.3823
80.168577 69.240 -52.8759
80.749512 69.309 -59.8206
81.334656 69.258 -65.7185
81.924040 69.183 -70.5095
82.517696 69.148 -74.7737
83.115653 69.138 -79.3029
83.717943 69.072 -84.3748
84.324598 68.881 -89.5470
84.935649 68.562 -94.1914
85.551128 68.159 -97.9966
86.171066 67.716 -101.0433
86.795497 67.249 -103.4435
87.424453 66.773 -105.1023
88.057967 66.311 -105.9969
88.696071 65.882 -106.3113
89.338800 65.484 -105.9885
89.986185 65.159 -104.5490
90.638262 65.015 -101.8014
91.295065 65.161 -98.5280
91.956626 65.605 -96.1104
92.622982 66.231 -95.7594
93.294166 66.853 -97.9514
93.970214 67.313 -102.0794
94.651161 67.559 -106.8184
95.337042 67.660 -111.0859
96.027894 67.727 -114.8375
96.723752 67.812 -118.8420
97.424652 67.881 -123.6833
98.130631 67.874 -129.3923
98.841726 67.750 -135.7913
99.557974 67.481 -142.6807
100.279412 67.056 -149.8081
101.006078 66.488 -156.9751
101.738010 65.798 -164.2034
102.475245 65.003 -171.6833
103.217823 64.111 -179.5629
103.965782 63.149 172.0192
104.719161 62.178 162.6785
105.477999 61.294 151.7579
106.242336 60.636 138.5245
107.012212 60.366 122.3610
107.787666 60.546 103.4380
108.568740 61.076 83.4133
109.355474 61.801 64.6184
110.147909 62.617 48.4606
110.946086 63.461 35.0675
111.750047 64.281 23.8665
112.559834 65.022 14.0690
113.375489 65.613 5.1381
114.197055 66.022 -2.6707
115.024574 66.311 -8.6641
115.858089 66.604 -12.9370
116.697645 66.953 -16.5605
117.543284 67.318 -20.3764
118.395051 67.617 -24.6775
119.252990 67.759 -29.4169
120.117147 67.680 -33.8017
120.987565 67.409 -36.5742
121.864291 67.067 -36.9958
122.747370 66.808 -35.1332
123.636848 66.779 -31.4758
124.532771 67.083 -26.8339
125.435187 67.692 -23.0886
126.344142 68.411 -21.9487
127.259684 69.082 -22.1353
128.181860 69.767 -21.6412
129.110718 70.572 -21.2200
130.046308 71.440 -22.4680
130.988677 72.254 -25.4219
131.937875 72.928 -29.7686
132.893951 73.386 -35.2376
133.856956 73.573 -41.1405
134.826938 73.481 -46.4706
135.803950 73.171 -50.1236
136.788041 72.796 -51.1022
137.779264 72.580 -49.4432
138.777669 72.669 -46.9939
139.783309 73.004 -45.7911
140.796237 73.412 -46.3304
141.816504 73.762 -48.0319
142.844165 74.020 -49.9056
143.879273 74.254 -51.1061
144.921881 74.555 -51.9835
145.972045 74.929 -53.5694
147.029819 75.302 -56.4565
148.095257 75.561 -60.8528
149.168417 75.592 -66.3293
150.249353 75.336 -71.7019
151.338121 74.830 -75.5911
152.434780 74.194 -77.2592
153.539385 73.584 -76.6396
154.651995 73.160 -74.1444
155.772667 72.973 -71.8416
156.901460 72.863 -71.5229
158.038432 72.641 -71.7868
159.183644 72.350 -69.9229
160.337154 72.256 -64.9954
161.499023 72.603 -58.8964
162.669312 73.347 -54.9703
163.848081 74.214 -54.7040
165.035392 74.952 -57.4682
166.231306 75.426 -61.9914
167.435887 75.634 -66.5391
168.649196 75.662 -70.3638
169.871298 75.570 -73.9992
171.102255 75.364 -77.3463
172.342133 75.078 -79.9948
173.590995 74.719 -82.6824
174.848907 74.195 -85.9051
176.115934 73.416 -88.1689
177.392143 72.488 -86.2943
178.677599 71.835 -78.3860
179.972371 71.860 -69.0178
181.276525 72.401 -64.0904
182.590129 73.040 -63.1367
183.913252 73.568 -63.9160
185.245964 73.983 -65.0283
186.588332 74.373 -65.8617
187.940428 74.821 -66.7633
189.302322 75.302 -69.1860
190.674085 75.677 -73.7737
192.055788 75.854 -79.3243
193.447503 75.858 -84.6835
194.849303 75.734 -90.3661
196.261262 75.418 -97.2980
197.683452 74.792 -104.8243
199.115948 73.824 -111.1860
200.558824 72.621 -114.8903
202.012156 71.373 -116.9410
203.476019 70.094 -121.2351
204.950490 68.485 -129.4268
206.435646 66.387 -136.2629
207.931564 64.970 -81.2568
209.438322 66.007 -28.6714
210.955998 67.944 -36.0854
212.484672 69.412 -46.6185
214.024424 70.328 -56.8447
215.575333 70.735 -68.6743
217.137481 70.487 -83.3903
218.710948 69.421 -99.5781
220.295818 67.556 -116.4458
221.892172 65.477 -139.3569
223.500094 65.118 72.0491
225.119668 67.006 27.4254
226.750978 69.021 6.1813
228.394109 70.326 -11.3132
230.049147 71.015 -25.3796
231.716178 71.330 -37.2808
233.395289 71.310 -50.0209
235.086567 70.794 -64.4274
236.790102 69.644 -78.7985
238.505980 67.844 -92.0565
240.234293 65.464 -105.5544
241.975130 62.988 -124.3879
243.728581 62.427 133.5193
245.494739 64.368 53.3408
247.273695 66.258 22.2964
249.065542 66.988 -6.7799
250.870374 66.539 -34.9531
252.688284 65.504 -65.4238
254.519367 65.434 -115.8715
256.363720 67.277 170.3889
258.221437 69.527 123.9600
260.092616 70.991 90.7638
261.977354 71.373 63.4370
263.875750 70.688 42.2736
265.787903 69.209 32.4100
267.713911 68.011 46.2791
269.653877 68.506 64.4607
271.607900 70.002 65.6748
273.576083 71.312 59.0579
275.558528 72.010 48.7986
277.555338 72.060 38.8534
279.566619 71.636 31.8611
281.592474 70.895 26.5365
283.633009 69.852 22.8619
285.688331 68.890 30.0587
287.758546 69.066 49.9457
289.843763 70.322 56.6777
291.944090 71.575 52.0624
294.059638 72.325 43.3569
296.190515 72.386 32.0557
298.336833 71.672 22.0017
300.498705 70.482 20.2556
302.676243 69.688 28.2305
304.869559 69.998 35.8997
307.078770 70.908 33.0908
309.303989 71.451 19.3027
311.545334 71.090 -0.9362
313.802919 69.653 -25.0017
316.076865 67.195 -54.9320
318.367288 64.523 -131.6677
320.674309 64.102 146.5356
322.998047 66.010 127.5173
325.338624 67.900 113.1455
327.696162 69.038 99.3574
330.070783 69.504 88.1892
332.462612 69.423 78.4990
334.871773 68.901 72.7151
337.298392 68.470 76.8203
339.742595 68.642 81.5730
342.204510 69.075 79.1912
344.684265 69.419 75.8064
347.181989 69.687 72.4507
349.697813 69.790 66.3589
352.231868 69.545 58.6499
354.784285 69.026 53.5383
357.355198 68.622 52.0613
359.944741 68.502 47.5842
362.553049 68.217 35.8489
365.180258 67.257 21.3442
367.826505 65.606 11.7151
370.491927 63.764 5.1001
373.176665 61.887 -10.1257
375.880856 59.342 -28.5403
378.604644 55.770 -22.6101
381.348169 52.032 3.3562
384.111575 50.986 3.9170
386.895006 53.362 -5.1350
389.698607 56.156 -34.5474
392.522524 58.230 -68.0176
395.366904 59.447 -96.8650
398.231895 59.775 -120.1738
401.117648 59.467 -136.2993
404.024312 59.539 -131.3015
406.952038 61.139 -103.6057
409.900981 63.098 -108.5767
412.871292 64.253 -124.0774
415.863128 64.575 -137.6321
418.876643 64.372 -146.8374
421.911996 63.949 -152.2876
424.969344 63.351 -158.7522
428.048847 62.612 -159.7932
431.150666 62.429 -146.4092
434.274961 62.800 -146.6082
437.421897 62.722 -156.8774
440.591636 62.071 -161.6523
443.784345 61.478 -160.6753
447.000189 61.067 -167.0706
450.239337 60.108 177.5212
453.501956 58.024 161.0808
456.788219 55.287 150.5942
460.098294 54.929 -18.7603
463.432356 57.698 -38.5122
466.790578 60.263 -58.7803
470.173135 61.654 -81.2031
473.580203 61.812 -103.9316
477.011961 60.691 -124.7227
480.468586 58.548 -130.0752
483.950259 56.839 -87.9321
487.457163 56.806 -78.5867
490.989478 57.002 -88.9629
494.547390 56.666 -95.4551
498.131084 56.095 -99.4551
501.740748 55.164 -109.7480
505.376568 53.538 -114.2422
509.038735 52.059 -74.6389
512.727439 51.748 -65.4517
516.442874 51.820 -71.3450
520.185232 51.893 -76.0132
523.954708 51.870 -85.7219
527.751500 51.990 -92.4844
531.575805 52.316 -110.4189
535.427822 52.258 -138.2588
539.307753 52.758 -152.0193
543.215800 54.855 -159.8577
547.152165 56.992 175.9021
551.117055 58.058 146.8333
555.110677 58.038 121.9353
559.133237 57.188 103.0442
563.184947 55.857 96.1482
567.266018 54.897 100.9822
571.376661 54.335 91.2942
575.517092 53.637 75.9028
579.687526 54.547 60.9229
583.888181 57.311 -130.6736
588.119275 59.628 -158.4670
592.381030 60.854 177.7659
596.673667 61.372 162.6978
600.997410 61.605 152.5535
605.352485 61.282 138.8142
609.739119 60.082 129.7798
614.157540 59.204 144.6821
618.607979 60.476 179.1008
623.090667 62.440 178.1562
627.605839 63.430 161.4473
632.153730 63.415 147.2202
636.734576 62.835 136.8013
641.348617 61.788 126.3633
645.996094 60.432 127.4082
650.677248 59.704 137.5674
655.392323 59.965 137.3044
660.141566 60.752 131.9143
664.925224 61.274 115.5005
669.743546 61.091 96.4768
674.596784 60.833 79.5610
679.485191 61.026 58.1089
684.409020 61.550 31.4785
689.368530 61.664 -4.0532
694.363979 60.544 -43.3440
699.395626 58.269 -73.1536
704.463736 56.454 -97.4421
709.568570 57.181 79.6658
714.710396 59.706 74.9741
719.889483 61.922 51.7188
725.106099 62.818 23.8740
730.360516 62.389 4.7739
735.653010 61.610 3.0994
740.983855 61.355 1.5300
746.353329 61.414 -1.4883
751.761713 61.592 -3.8062
757.209288 61.562 -12.0081
762.696339 60.887 -22.2349
768.223151 60.018 -12.1057
773.790013 60.712 16.0181
779.397214 62.209 13.7537
785.045047 62.778 -3.1355
790.733808 62.466 -19.0957
796.463791 61.407 -38.8105
802.235296 59.617 -56.6201
808.048623 58.286 -80.5447
813.904077 58.704 87.7397
819.801961 59.817 46.2903
825.742584 59.903 12.3850
831.726255 59.042 -8.2146
837.753287 58.665 -16.5029
843.823992 58.930 -37.0879
849.938689 58.507 -68.7039
856.097695 57.285 -101.8049
862.301332 56.080 -123.2397
868.549922 56.695 -27.9141
874.843793 59.107 -46.5996
881.183272 60.900 -79.5046
887.568689 61.383 -112.1145
894.000378 61.030 -135.5649
900.478673 60.848 -150.2419
907.003913 60.918 -175.0396
913.576437 60.350 151.4517
920.196588 59.005 114.2349
926.864712 57.654 72.1733
933.581156 57.728 -74.9907
940.346270 58.899 -136.7244
947.160407 60.172 -178.9167
954.023921 61.352 145.6755
960.937172 62.233 112.1807
967.900519 62.436 77.0850
974.914325 61.475 41.6560
981.978956 59.502 10.5522
989.094780 57.409 -31.4087
996.262169 56.212 -120.4321
1003.481495 56.585 163.9277
1010.753136 56.840 120.3044
1018.077470 55.609 89.4680
1025.454879 53.544 78.3386
1032.885748 53.097 134.7080
1040.370463 54.549 143.6919
1047.909417 55.083 110.6616
1055.503000 53.792 70.5437
1063.151610 51.577 -45.6514
1070.855645 50.452 -144.3130
1078.615506 50.889 -114.5498
1086.431599 52.032 -102.9268
1094.304330 53.229 -109.3184
1102.234110 53.950 -120.2368
1110.221353 54.363 -134.4312
1118.266475 54.509 -161.7822
1126.369895 55.571 127.4629
1134.532035 57.852 22.7358
1142.753322 59.728 -18.3643
1151.034184 60.132 -49.3989
1159.375052 59.146 -68.9233
1167.776361 57.514 -77.2656
1176.238550 55.776 -84.1250
1184.762060 53.894 -90.5317
1193.347334 52.423 -89.9531
1201.994821 53.156 72.3921
1210.704971 55.430 49.1069
1219.478238 56.930 21.8857
1228.315080 56.992 -6.0942
1237.215957 55.667 -35.8022
1246.181334 53.005 -69.6646
1255.211678 49.808 -147.4033
1264.307459 48.092 84.6694
1273.469152 47.927 -157.4678
1282.697235 49.194 -165.8501
1291.992188 51.474 -120.7954
1301.354495 53.362 -133.3604
1310.784647 54.106 -155.9194
1320.283132 54.008 -176.4956
1329.850448 53.488 162.1758
1339.487093 53.364 -75.3682
1349.193569 53.791 -88.9224
1358.970381 54.667 -91.3706
1368.818041 56.042 -94.1655
1378.737061 57.266 -108.6177
1388.727958 58.090 -134.1982
1398.791253 58.888 -173.7715
1408.927471 59.676 132.2773
1419.137140 59.819 81.4590
1429.420793 59.103 43.3599
1439.778965 57.776 14.3906
1450.212197 56.675 102.6577
1460.721033 56.859 109.5522
1471.306019 57.703 100.0605
1481.967709 59.282 118.5493
1492.706658 61.107 118.3115
1503.523426 61.706 96.2446
1514.418576 60.812 68.8677
1525.392678 58.981 30.8677
1536.446302 57.007 -158.0654
1547.580025 55.452 -171.9346
1558.794428 54.936 -160.6382
1570.090095 55.623 -146.7310
1581.467615 56.791 -123.2764
1592.927581 57.209 -129.6323
1604.470591 56.560 -117.6802
1616.097246 56.115 -68.9365
1627.808153 55.972 -65.4072
1639.603922 56.080 -46.8594
1651.485168 56.566 -30.0693
1663.452510 56.683 -28.9424
1675.506573 56.448 -14.8335
1687.647984 56.988 25.1699
1699.877377 58.123 43.4819
1712.195390 58.602 37.7407
1724.602663 57.915 26.3564
1737.099845 56.246 17.5791
1749.687587 54.892 135.9888
1762.366544 55.651 171.2144
1775.137379 57.066 164.1724
1788.000756 57.502 161.9600
1800.957346 57.153 177.0649
1814.007826 56.460 -171.5405
1827.152874 56.359 -142.8965
1840.393177 57.495 -110.8516
1853.729425 58.739 -96.7920
1867.162312 58.753 -104.3091
1880.692540 57.508 -103.5596
1894.320813 56.041 -84.9883
1908.047843 55.227 -62.0586
1921.874344 55.537 25.8047
1935.801038 56.048 24.0996
1949.828650 56.030 20.4297
1963.957912 56.814 64.0928
1978.189561 58.593 111.1821
1992.524338 59.369 96.2595
2006.962991 58.524 87.4773
2021.506272 57.439 112.6221
2036.154940 57.620 -171.1919
2050.909758 58.391 -158.8530
2065.771495 58.110 -165.8582
2080.740927 57.709 -150.0703
2095.818833 58.813 -83.8701
2111.006001 60.166 -75.2874
2126.303220 60.243 -82.0774
2141.711290 59.719 -76.7759
2157.231013 59.294 -59.8525
2172.863198 59.180 -49.4502
2188.608660 59.032 93.3130
2204.468221 58.638 73.4585
2220.442706 57.851 73.7935
2236.532950 57.777 101.9512
2252.739789 58.818 140.0527
2269.064070 59.581 137.9431
2285.506644 59.303 130.5879
2302.068367 58.032 149.9468
2318.750104 57.119 -140.7698
2335.552723 57.083 -135.9907
2352.477101 57.518 -120.4043
2369.524119 58.421 -118.9834
2386.694668 59.325 -13.8667
2403.989641 59.481 -29.1250
2421.409941 58.312 -29.7388
2438.956476 57.531 27.4353
2456.630160 58.348 62.6470
2474.431915 59.041 63.5154
2492.362668 58.568 55.4609
2510.423356 57.194 46.7441
2528.614918 56.051 87.7964
2546.938304 55.621 168.7314
2565.394469 55.567 -165.4966
2583.984375 55.895 -67.5803
2602.708991 55.885 -81.5789
2621.569293 55.313 -87.5850
2640.566265 54.260 -93.1509
2659.700897 53.391 -79.9067
2678.974186 53.465 -103.4927
2698.387137 54.927 -179.1243
2717.940763 57.168 160.9438
2737.636082 58.613 154.0532
2757.474121 59.072 147.2695
2777.455915 58.699 133.6135
2797.582506 58.529 -171.3416
2817.854942 58.538 -105.9644
2838.274281 58.155 -56.9556
2858.841586 58.039 -62.8552
2879.557931 57.529 -77.4795
2900.424394 56.006 -72.8247
2921.442065 55.579 24.1396
2942.612039 57.360 86.7271
2963.935418 58.772 80.1970
2985.413316 59.229 43.4763
3007.046852 59.419 -95.8518
3028.837153 58.759 -168.0083
3050.785356 57.345 165.8535
3072.892604 56.186 -165.6492
3095.160050 55.389 119.3772
3117.588856 54.859 60.9246
3140.180190 55.661 77.0752
3162.935230 56.934 70.5474
3185.855163 57.316 65.5437
3208.941182 57.152 39.1558
3232.194493 56.875 -107.1582
3255.616307 56.895 -115.8630
3279.207844 56.987 -87.0537
3302.970336 57.310 -84.6538
3326.905021 58.149 -71.4114
3351.013146 58.977 -22.6975
3375.295969 58.995 27.7114
3399.754755 58.441 13.0034
3424.390779 58.221 163.8293
3449.205326 58.462 145.1453
3474.199690 58.974 162.4949
3499.375173 59.407 -173.6023
3524.733088 58.959 -113.5439
3550.274757 57.830 -103.3582
3576.001511 57.769 -21.0078
3601.914692 58.447 -27.3987
3628.015651 58.208 -23.6558
3654.305748 57.762 86.5806
3680.786354 58.071 143.2312
3707.458849 59.069 -166.2810
3734.324624 60.081 -167.9792
3761.385080 61.084 -122.0735
3788.641627 61.028 -135.5310
3816.095686 59.566 -158.5442
3843.748688 58.469 97.4324
3871.602076 59.237 70.4705
3899.657300 61.138 95.2673
3927.915825 62.351 80.8081
3956.379122 61.755 48.6086
3985.048676 60.475 7.7000
4013.925981 61.409 -25.2070
4043.012544 62.942 -51.2949
4072.309879 62.858 -74.2498
4101.819515 61.583 -81.3462
4131.542990 60.487 -108.0500
4161.481854 59.786 -167.4971
4191.637667 59.367 163.5417
4222.012001 59.232 157.2371
4252.606441 58.144 129.2500
4283.422580 56.968 83.6099
4314.462026 57.599 46.4617
4345.726396 58.755 36.1941
4377.217321 59.291 34.2791
4408.936442 58.822 9.5195
4440.885413 57.804 -33.2441
4473.065899 57.628 -82.7666
4505.479579 58.107 -112.8069
4538.128141 58.127 -131.5969
4571.013288 57.633 -149.0742
4604.136735 57.579 162.1531
4637.500207 58.588 128.2581
4671.105446 59.830 120.5908
4704.954201 60.507 94.3394
4739.048239 60.900 54.5481
4773.389336 61.015 11.2424
4807.979283 60.436 -18.6423
4842.819883 59.806 -44.7432
4877.912952 59.672 -88.8130
4913.260320 59.548 -141.6956
4948.863830 58.752 -169.5151
4984.725337 57.370 175.6355
5020.846712 56.098 150.3552
5057.229836 56.499 109.9958
5093.876609 57.794 73.5779
5130.788938 58.236 37.3408
5167.968750 57.727 2.4932
5205.417982 57.793 -7.6533
5243.138586 58.774 -15.3096
5281.132530 59.398 -48.6812
5319.401793 59.633 -86.6221
5357.948371 59.441 -117.9580
5396.774274 59.308 -143.0737
5435.881525 59.363 179.9419
5475.272163 59.806 129.5708
5514.948243 59.864 81.7358
5554.911831 58.510 45.3403
5595.165012 56.770 13.4204
5635.709884 56.902 -16.2217
5676.548561 57.427 -55.5327
5717.683172 56.857 -79.7852
5759.115861 56.532 -48.4019
5800.848789 56.951 -166.6504
5842.884130 57.308 -168.4688
5885.224077 57.364 -149.0991
5927.870837 56.880 -179.2378
5970.826633 56.822 99.3491
6014.093704 57.680 101.6709
6057.674306 58.413 84.6255
6101.570711 58.600 72.6001
6145.785208 58.466 -36.4243
6190.320101 58.650 -34.0737
6235.177712 59.324 -29.1934
6280.360380 60.000 -85.7622
6325.870460 60.977 -148.5073
6371.710325 61.473 177.7520
6417.882365 60.766 129.2407
6464.388986 59.737 66.2031
6511.232613 59.061 32.5337
6558.415689 58.286 5.9102
6605.940673 58.674 -45.3125
6653.810042 59.594 -81.2412
6702.026292 59.992 -115.2988
6750.591937 60.388 -175.3203
6799.509509 60.252 140.1533
6848.781558 59.305 132.9551
6898.410653 58.284 100.7256
6948.399380 58.028 53.9175
6998.750346 57.883 18.2900
7049.466176 57.524 -15.1450
7100.549514 58.239 -54.3779
7152.003023 59.150 -90.0991
7203.829385 59.273 -133.6992
7256.031302 59.091 160.3760
7308.611496 58.773 113.3237
7361.572708 58.257 63.2412
7414.917698 58.497 4.3511
7468.649249 59.126 -28.1724
7522.770160 59.631 -74.4648
7577.283253 60.296 -131.8423
7632.191371 60.887 -165.1025
7687.497376 61.287 157.1182
7743.204151 61.495 113.2510
7799.314600 60.822 56.6987
7855.831649 59.273 1.5444
7912.758244 58.216 -52.8945
7970.097352 58.308 -98.1455
8027.851962 58.327 -153.6646
8086.025087 57.514 139.1626
8144.619758 56.894 86.3579
8203.639030 56.657 47.4971
8263.085980 56.761 14.4541
8322.963708 57.145 -33.0786
8383.275334 57.362 -84.6821
8444.024002 57.577 -131.8374
8505.212881 57.692 -170.0459
8566.845160 57.418 133.5029
8628.924051 56.860 77.6440
8691.452792 55.603 39.2329
8754.434642 54.407 -23.4653
8817.872884 54.583 -40.9976
8881.770826 54.738 -84.7183
8946.131799 54.649 -164.6914
9010.959157 55.247 141.6035
9076.256282 55.883 81.4341
9142.026576 56.204 28.5513
9208.273470 56.419 -19.9072
9275.000415 56.751 -63.0259
9342.210891 56.657 -102.3110
9409.908403 56.372 -148.0190
9478.096478 55.901 164.5791
9546.778672 55.159 100.4814
9615.958566 55.211 39.8491
9685.639765 55.256 -33.3633
9755.825904 54.675 -107.7075
9826.520640 54.120 176.3516
9897.727659 54.276 107.3345
9969.450674 54.429 49.5186
10041.693423 54.247 -11.8735
10114.459673 53.310 -61.4414
10187.753217 52.331 -131.8340
10261.577877 52.276 166.9053
10335.937500 52.450 146.4902
10410.835964 51.713 101.2891
10486.277173 51.175 64.1006
10562.265060 52.082 46.0000
10638.803587 52.976 -26.7227
10715.896743 52.898 -83.9355
10793.548548 52.452 -129.2539
10871.763050 52.486 -172.4385
10950.544327 53.017 123.6543
11029.896485 53.753 49.3477
11109.823662 54.648 -24.5918
11190.330024 55.205 -105.2666
11271.419768 55.268 179.0049
11353.097122 55.398 107.3691
11435.366344 55.599 32.1992
11518.231722 55.492 -39.8945
11601.697577 55.209 -108.1152
11685.768261 55.155 -176.4570
11770.448155 55.117 109.3477
11855.741674 54.892 29.1914
11941.653265 54.710 -47.9912
12028.187408 54.577 -120.4170
12115.348612 54.509 169.5859
12203.141422 54.330 100.9775
12291.570415 54.073 31.4297
12380.640201 53.763 -37.3809
12470.355424 53.243 -113.1562
12560.720760 52.728 166.1553
12651.740920 52.629 90.1641
12743.420650 53.158 15.8545
12835.764729 53.867 -60.2734
12928.777972 54.244 -138.8379
13022.465227 54.187 142.7148
13116.831378 53.782 58.9893
13211.881345 53.054 -24.8096
13307.620084 52.482 -105.0615
13404.052584 52.312 172.1357
13501.183875 51.844 92.1445
13599.019019 50.972 12.2412
13697.563116 50.853 -69.4512
13796.821305 51.288 -145.4590
13896.798760 51.241 136.0850
13997.500692 51.001 52.8018
14098.932352 51.235 -31.5830
14201.099028 51.202 -122.1406
14304.006046 50.805 144.8887
14407.658770 50.636 45.7598
14512.062604 50.134 -62.8955
14617.222992 49.190 -103.6660
14723.145416 48.634 173.1582
14829.835397 48.266 78.7344
14937.298497 47.790 147.0137
15045.540320 47.769 52.2510
15154.566507 47.371 -56.0693
15264.382743 46.372 -165.0342
15374.994752 45.658 106.3359
15486.408302 45.081 26.3047
15598.629201 44.665 -67.4795
15711.663298 44.766 -165.1533
15825.516487 44.675 104.8604
15940.194703 44.003 17.0664
16055.703925 43.427 -77.8008
16172.050174 43.445 -174.9600
16289.239516 43.788 87.7832
16407.278061 44.457 -5.0986
16526.171961 45.156 -101.8857
16645.927415 46.081 154.0547
16766.550667 46.938 45.1807
16888.048005 46.747 -66.7490
17010.425762 45.680 -172.1562
17133.690320 44.478 83.8184
17257.848103 43.466 -10.3428
17382.905584 43.035 -104.4365
17508.869284 42.809 158.1875
17635.745768 42.392 60.4531
17763.541652 41.691 -35.4502
17892.263597 41.173 -136.3066
18021.918315 41.351 115.1338
18152.512564 41.511 0.7646
18284.053153 41.261 -107.3633
18416.546939 40.858 144.9727
18550.000830 40.350 29.8525
18684.421783 39.495 -85.9395
18819.816805 38.514 163.5557
18956.192956 37.682 54.9980
19093.557344 36.824 -56.2725
19231.917131 35.925 -171.6787
19371.279531 34.813 77.3496
19511.651807 33.515 -27.5488
19653.041280 32.223 -136.1416
19795.455318 31.190 110.0586
19938.901348 30.575 -4.1465
